Trial,Coherence,Practice,Block,Target_Direction,Distractor_Direction,RT,Acc,Congruency
1,20,1,3,2,2,2.82872728808024,1,1
2,40,1,3,2,2,0.683566946463543,1,1
3,80,1,3,2,2,0.449516216394841,1,1
4,10,1,3,2,1,0.992519424056809,0,0
5,90,1,3,2,2,0.416339338843954,1,1
6,60,1,3,1,1,0.479174011620216,1,1
7,80,1,3,1,1,0.445236085605757,1,1
8,10,1,3,2,2,0.847669059031432,1,1
9,10,1,3,1,1,0.621824228477635,1,1
10,20,1,3,1,1,0.98529613951041,1,1
11,90,1,3,1,1,0.483309438552624,1,1
12,80,1,3,1,2,0.537184741357123,1,0
13,10,1,3,1,2,5.49948920621091,1,0
14,90,1,3,2,1,0.588028480317462,1,0
15,60,1,3,2,1,0.665405710280993,1,0
16,20,1,3,1,2,0.580289891262964,1,0
17,90,1,3,1,2,0.560911843595477,1,0
18,40,1,3,1,2,0.629031996151753,1,0
19,60,1,3,1,2,0.46743026519016,1,0
20,80,1,3,2,1,0.509658892232437,1,0
21,20,1,3,2,1,0.932396234523821,1,0
22,40,1,3,2,1,0.60893981149502,1,0
23,40,1,3,1,1,0.617318922609229,1,1
24,60,1,3,2,2,0.511386677935207,1,1
1,10,0,4,2,1,0.579046737180761,1,0
2,10,0,4,2,2,1.5100063980035,1,1
3,80,0,4,2,1,0.48732975194298,1,0
4,40,0,4,1,1,0.624738874492778,1,1
5,20,0,4,2,2,1.21166457429445,1,1
6,10,0,4,1,2,0.633255472313522,1,0
7,20,0,4,1,1,0.912274098694979,1,1
8,10,0,4,2,1,1.92485756052383,1,0
9,40,0,4,2,2,0.750465235529646,1,1
10,40,0,4,2,1,0.712661082276554,1,0
11,60,0,4,1,1,0.566246760853119,1,1
12,80,0,4,2,2,0.460205537214279,1,1
13,90,0,4,1,2,0.480258388403399,1,0
14,20,0,4,1,2,6.91332419401579,1,0
15,10,0,4,1,2,0.983813736906995,0,0
16,40,0,4,1,2,0.707927714469406,1,0
17,40,0,4,2,1,0.583334085119532,1,0
18,60,0,4,1,1,0.613310156659281,1,1
19,20,0,4,2,1,0.824395554668627,1,0
20,20,0,4,1,2,1.09538618428223,1,0
21,80,0,4,2,2,0.419335899511225,1,1
22,20,0,4,1,2,0.796884500701253,1,0
23,10,0,4,1,2,0.618103065953619,1,0
24,90,0,4,1,2,0.420011785605766,1,0
25,90,0,4,1,1,0.42215491828938,1,1
26,40,0,4,2,2,0.854313528150669,1,1
27,10,0,4,2,1,1.01523792958733,0,0
28,80,0,4,2,2,0.509853394424226,1,1
29,90,0,4,2,1,0.522891536701081,1,0
30,90,0,4,2,1,0.4726558426255,1,0
31,40,0,4,1,2,0.52399215207106,1,0
32,20,0,4,2,2,0.523501746730744,1,1
33,80,0,4,2,2,0.450021416892469,1,1
34,20,0,4,2,1,9.35565285075609,1,0
35,90,0,4,2,2,0.484403919345368,1,1
36,40,0,4,1,1,0.488864839741382,1,1
37,20,0,4,1,2,1.51145488000247,1,0
38,80,0,4,1,1,0.557305433756028,1,1
39,40,0,4,1,2,0.645976420849365,1,0
40,80,0,4,2,2,0.512909496578686,1,1
41,20,0,4,2,2,0.645968842841739,1,1
42,60,0,4,1,1,0.456918125402808,1,1
43,10,0,4,2,1,0.72352650155517,1,0
44,10,0,4,2,1,0.904539479073264,1,0
45,60,0,4,2,1,0.536288010473527,1,0
46,10,0,4,2,2,0.832335141349631,1,1
47,20,0,4,1,1,0.698860808963218,1,1
48,80,0,4,1,1,0.482789803754713,1,1
49,20,0,4,1,2,0.74535296734939,1,0
50,20,0,4,2,1,0.592375369743877,1,0
51,90,0,4,2,2,0.4676189936622,1,1
52,80,0,4,1,2,0.458510950401433,1,0
53,80,0,4,1,2,0.493178169420389,1,0
54,60,0,4,2,2,0.465557775631169,1,1
55,90,0,4,1,1,0.473062889883749,1,1
56,80,0,4,1,2,0.442644407051375,1,0
57,60,0,4,2,1,0.471644719914821,1,0
58,80,0,4,2,1,0.451929992201713,1,0
59,20,0,4,1,2,0.497180079078589,1,0
60,90,0,4,2,2,0.418937873690538,1,1
61,20,0,4,2,2,0.666026024321127,1,1
62,60,0,4,1,1,0.511069484194195,1,1
63,20,0,4,2,2,1.44724497929974,1,1
64,20,0,4,2,1,0.898649202125853,1,0
65,10,0,4,2,2,2.30918631325221,1,1
66,10,0,4,2,2,2.62986485525789,1,1
67,80,0,4,2,2,0.481871782278631,1,1
68,60,0,4,1,2,0.643042288529614,1,0
69,90,0,4,2,2,0.536150884624476,1,1
70,40,0,4,2,1,0.511294298415578,1,0
71,60,0,4,1,2,0.617241699104397,1,0
72,90,0,4,2,1,0.471152510287084,1,0
73,20,0,4,2,1,0.711080887290791,1,0
74,20,0,4,1,1,0.556018976773885,1,1
75,40,0,4,1,1,0.515835329176298,1,1
76,60,0,4,1,2,0.546490534527493,1,0
77,10,0,4,2,2,0.972367697913342,1,1
78,10,0,4,2,2,0.837400858913043,1,1
79,90,0,4,2,1,0.589604345012958,1,0
80,20,0,4,2,2,3.79657235896548,0,1
81,40,0,4,1,1,0.506262862314543,1,1
82,10,0,4,1,2,6.93074098117859,1,0
83,10,0,4,1,1,0.774369518800086,1,1
84,40,0,4,2,2,0.511161502856339,1,1
85,20,0,4,2,2,1.22347507936138,1,1
86,90,0,4,1,1,0.651721993939645,1,1
87,10,0,4,1,1,3.09865880093548,1,1
88,80,0,4,2,2,0.49671601633554,1,1
89,90,0,4,1,1,0.496723594342711,1,1
90,10,0,4,1,1,1.09723630067674,0,1
91,60,0,4,1,2,0.582156967959691,1,0
92,40,0,4,2,1,0.771420952180051,1,0
93,60,0,4,2,1,0.489779974357134,1,0
94,60,0,4,1,2,0.559917681187471,1,0
95,80,0,4,2,1,0.486265583179829,1,0
96,60,0,4,1,1,0.524983788476675,1,1
97,20,0,4,2,1,0.94672624664554,1,0
98,60,0,4,2,1,0.445188813273035,1,0
99,60,0,4,1,2,0.495786447419505,1,0
100,90,0,4,1,2,0.473347967307745,1,0
101,60,0,4,1,1,0.450472488765627,1,1
102,90,0,4,1,2,0.541703038094965,1,0
103,10,0,4,2,2,0.7130973589924,1,1
104,60,0,4,2,1,0.483341194012155,1,0
105,60,0,4,2,2,0.494688358051462,1,1
106,60,0,4,1,2,0.444668095902671,1,0
107,40,0,4,2,1,0.420279541869604,1,0
108,60,0,4,1,1,0.43060331404331,1,1
109,40,0,4,1,2,0.434951646899663,1,0
110,80,0,4,1,2,0.507275428455159,1,0
111,20,0,4,1,1,0.76268170528283,1,1
112,40,0,4,1,2,0.519900388896531,1,0
113,10,0,4,2,1,0.558673444532815,1,0
114,10,0,4,2,2,0.492625335732555,0,1
115,10,0,4,1,2,0.692901608233569,1,0
116,60,0,4,2,2,0.495269338623984,1,1
117,60,0,4,2,2,0.571943618181194,1,1
118,60,0,4,2,2,0.479199993359998,1,1
119,90,0,4,1,2,0.896296772093592,1,0
120,10,0,4,1,1,10.4531634031314,1,1
121,10,0,4,1,1,1.15608241552218,1,1
122,20,0,4,1,1,0.806107657504526,1,1
123,40,0,4,1,1,0.710868342223876,1,1
124,40,0,4,1,2,0.515564325194646,1,0
125,60,0,4,2,2,0.49646846809128,1,1
126,40,0,4,2,2,0.5705525125245,1,1
127,40,0,4,2,2,0.521063071756544,1,1
128,40,0,4,1,2,0.491962440507905,1,0
129,80,0,4,2,1,0.446486817695131,1,0
130,10,0,4,1,2,0.803811160384157,1,0
131,20,0,4,2,2,0.739649253728658,1,1
132,40,0,4,1,2,0.455725491370686,1,0
133,60,0,4,2,2,0.466080658145984,1,1
134,80,0,4,2,1,0.439022119481706,1,0
135,10,0,4,1,2,1.05798186113725,1,0
136,80,0,4,1,1,0.528977037554796,1,1
137,90,0,4,2,1,0.46632531953037,1,0
138,40,0,4,2,2,0.669081404760618,1,1
139,80,0,4,2,1,0.451318338741657,1,0
140,20,0,4,2,1,0.422919214471221,1,0
141,60,0,4,1,2,0.431341628484915,1,0
142,60,0,4,1,1,0.476832768170425,1,1
143,80,0,4,2,1,0.494086086886455,1,0
144,90,0,4,2,2,0.930964712827972,1,1
145,20,0,4,1,2,0.54477285283474,1,0
146,40,0,4,1,1,0.718754882852863,1,1
147,60,0,4,1,2,0.508092048974049,1,0
148,40,0,4,1,1,0.554068902852123,1,1
149,10,0,4,1,1,0.847402385340501,1,1
150,40,0,4,2,1,0.515197693976006,1,0
151,20,0,4,1,1,0.606090119829787,1,1
152,60,0,4,2,1,0.525509918709758,1,0
153,80,0,4,1,2,0.504524611744728,1,0
154,80,0,4,1,2,0.478631281942398,1,0
155,80,0,4,2,2,0.464262658069401,1,1
156,60,0,4,2,1,0.490541383679101,1,0
157,10,0,4,2,2,1.26920113727874,1,1
158,90,0,4,1,1,0.544922969554136,1,1
159,10,0,4,2,1,1.64663173806639,1,0
160,90,0,4,2,1,0.553026024681913,1,0
161,80,0,4,1,1,0.502565155527918,1,1
162,90,0,4,2,1,0.561222181044286,1,0
163,60,0,4,2,1,0.535862198625182,1,0
164,90,0,4,2,1,0.497535884571789,1,0
165,60,0,4,1,2,0.430497582795851,1,0
166,80,0,4,2,1,0.403260419670005,1,0
167,90,0,4,1,2,0.464760641416888,1,0
168,80,0,4,2,1,0.44371471039176,1,0
169,60,0,4,1,2,0.385165220410272,1,0
170,90,0,4,2,1,0.398125417466872,1,0
171,20,0,4,1,2,1.11047111028984,0,0
172,90,0,4,1,1,0.55137004962171,1,1
173,20,0,4,1,2,3.31510112850992,1,0
174,60,0,4,1,1,0.510668932370663,1,1
175,90,0,4,1,1,0.787878940970131,1,1
176,20,0,4,1,1,1.31229798746199,0,1
177,20,0,4,2,2,0.698652955044054,1,1
178,60,0,4,1,2,1.34073644520004,1,0
179,90,0,4,1,2,0.518790030373566,1,0
180,90,0,4,2,1,0.511079588204211,1,0
181,10,0,4,1,2,1.04322784145506,1,0
182,60,0,4,2,1,0.47820727438193,1,0
183,40,0,4,1,1,0.49471650493615,1,1
184,40,0,4,2,1,0.452366990632527,1,0
185,90,0,4,2,2,0.595807485411569,1,1
186,80,0,4,1,2,0.584903454380765,1,0
187,40,0,4,1,1,0.611575514663855,1,1
188,40,0,4,2,2,0.511031233299036,1,1
189,90,0,4,2,2,0.506497058830973,1,1
190,90,0,4,2,1,0.517189988225255,1,0
191,20,0,4,1,1,0.685203796076621,1,1
192,10,0,4,1,1,1.52921772950594,1,1
193,80,0,4,1,1,0.539197243625949,1,1
194,20,0,4,1,1,1.86274207674205,1,1
195,40,0,4,2,1,0.51478595557046,1,0
196,40,0,4,2,2,0.692550133030181,1,1
197,80,0,4,2,2,0.494992200065099,1,1
198,40,0,4,1,2,0.830779123816683,1,0
199,20,0,4,2,1,2.88045657134126,1,0
200,80,0,4,1,2,0.695721348726238,1,0
201,60,0,4,2,1,0.523695527207565,1,0
202,10,0,4,1,1,0.922547711676089,1,1
203,60,0,4,2,2,0.501146624701505,1,1
204,90,0,4,1,2,0.555663532138169,1,0
205,80,0,4,1,2,0.544548038612902,1,0
206,10,0,4,2,1,1.13435843325806,1,0
207,40,0,4,2,1,0.59266225145484,1,0
208,40,0,4,1,2,0.616393323125521,1,0
209,40,0,4,1,2,0.711045523255962,1,0
210,10,0,4,1,1,7.94162552590478,1,1
211,90,0,4,2,2,0.52098187881893,1,1
212,20,0,4,1,2,0.765197603761862,1,0
213,80,0,4,1,2,0.492019816850643,1,0
214,90,0,4,1,1,0.448674696708167,1,1
215,80,0,4,1,1,0.400427327449506,1,1
216,90,0,4,1,1,0.436090874021829,1,1
217,40,0,4,1,1,1.7812074075382,1,1
218,20,0,4,2,1,1.63511930129334,1,0
219,90,0,4,2,1,0.485911221116567,1,0
220,80,0,4,2,2,0.501328136023403,1,1
221,60,0,4,1,1,0.547971854558455,1,1
222,40,0,4,1,1,0.601850405080768,1,1
223,90,0,4,1,1,0.463574502819483,1,1
224,80,0,4,1,1,0.508944755242737,1,1
225,10,0,4,2,1,0.532118302078743,1,0
226,20,0,4,1,1,0.637509621362824,1,1
227,90,0,4,1,2,0.461028292310857,1,0
228,80,0,4,2,2,0.432516219642366,1,1
229,20,0,4,2,1,1.83005524367445,0,0
230,10,0,4,1,2,13.6404711788527,1,0
231,40,0,4,2,2,0.462433110551956,1,1
232,40,0,4,2,1,0.492193028449492,1,0
233,80,0,4,2,1,0.402700729689968,1,0
234,40,0,4,2,2,0.383456199297143,1,1
235,10,0,4,2,2,1.13097683763954,0,1
236,80,0,4,1,2,0.517691941005523,1,0
237,80,0,4,1,1,0.394072987759046,1,1
238,10,0,4,1,1,5.59321255913983,0,1
239,60,0,4,2,1,0.468588978617845,1,0
240,10,0,4,1,2,0.596006678750655,1,0
241,40,0,4,2,2,0.68437995840759,1,1
242,60,0,4,2,2,0.459379895257371,1,1
243,20,0,4,2,2,1.15962675787205,1,1
244,10,0,4,2,2,3.36458010441038,0,1
245,20,0,4,1,1,1.15299636219561,1,1
246,80,0,4,1,2,0.510305548869837,1,0
247,90,0,4,1,2,0.457357288978983,1,0
248,60,0,4,1,1,0.499719433295013,1,1
249,10,0,4,2,1,1.00550921142894,1,0
250,40,0,4,2,2,0.540235791506802,1,1
251,20,0,4,2,1,1.02616433378307,1,0
252,20,0,4,2,1,1.71110037359585,1,0
253,80,0,4,2,1,0.467229989279076,1,0
254,90,0,4,1,1,0.565293736199237,1,1
255,10,0,4,1,1,0.939204893805254,1,1
256,40,0,4,1,1,0.583926613132462,1,1
257,60,0,4,1,1,0.460003457014409,1,1
258,80,0,4,1,1,0.42895924728009,1,1
259,20,0,4,1,2,0.8120859836813,1,0
260,90,0,4,2,2,0.456954572010545,1,1
261,90,0,4,1,2,0.583921200269742,1,0
262,10,0,4,2,1,1.01988433073757,1,0
263,90,0,4,1,2,0.491963883938297,1,0
264,60,0,4,2,1,0.560773274316034,1,0
265,80,0,4,2,1,0.514797863867898,1,0
266,40,0,4,2,1,0.507852800452838,1,0
267,80,0,4,1,1,0.526592130347581,1,1
268,80,0,4,1,1,0.51238444891851,1,1
269,10,0,4,2,1,1.11206934815073,1,0
270,90,0,4,2,2,0.509142505151885,1,1
271,40,0,4,2,1,0.559356186920013,1,0
272,20,0,4,1,2,0.552517937323955,1,0
273,10,0,4,2,2,1.98058406229575,1,1
274,90,0,4,1,1,0.618977423672277,1,1
275,80,0,4,2,2,0.499631384065196,1,1
276,60,0,4,2,2,0.835603066855583,1,1
277,40,0,4,1,2,0.555513415418773,1,0
278,80,0,4,1,1,0.436412758911047,1,1
279,20,0,4,2,2,0.751122357034546,1,1
280,10,0,4,1,1,1.26802690697878,1,1
281,10,0,4,1,2,1.03898632241817,1,0
282,90,0,4,2,2,0.452548862811454,1,1
283,20,0,4,1,1,0.903047694174347,1,1
284,60,0,4,2,2,0.446544194037415,1,1
285,10,0,4,1,2,1.49825326927839,1,0
286,90,0,4,2,2,0.480211837785646,1,1
287,60,0,4,2,2,0.420022611330751,1,1
288,20,0,4,2,2,1.63487644419683,1,1
