Trial,Coherence,Practice,Block,Target_Direction,Distractor_Direction,RT,Acc,Congruency
1,20,1,3,2,1,22.6811455927091,1,0
2,20,1,3,2,2,2.44001628190745,1,1
3,40,1,3,2,1,1.11784018122125,1,0
4,80,1,3,2,1,1.09007724875119,1,0
5,10,1,3,1,1,2.23307641479187,1,1
6,80,1,3,1,2,0.867485909489915,1,0
7,80,1,3,1,1,0.612738558440469,1,1
8,80,1,3,2,2,0.674160113208927,1,1
9,60,1,3,2,1,0.604565496905707,1,0
10,20,1,3,1,1,1.51401011203416,1,1
11,40,1,3,2,2,0.730083282338455,1,1
12,40,1,3,1,1,0.558290213812143,1,1
13,60,1,3,1,1,0.583688447135501,1,1
14,90,1,3,1,2,0.507770885713398,1,0
15,40,1,3,1,2,1.19042341934983,1,0
16,60,1,3,1,2,1.44412320107222,1,0
17,90,1,3,2,1,0.748943138634786,1,0
18,90,1,3,1,1,1.29521896294318,1,1
19,10,1,3,2,2,3.25805064057931,1,1
20,10,1,3,2,1,2.01966240338515,1,0
21,60,1,3,2,2,0.884868415188976,1,1
22,20,1,3,1,2,0.776355678448454,1,0
23,10,1,3,1,2,1.48782196163666,0,0
24,90,1,3,2,2,0.765474381507374,1,1
1,90,0,4,2,1,0.962520979344845,1,0
2,80,0,4,1,1,0.553103969898075,1,1
3,40,0,4,1,1,0.637738044257276,1,1
4,80,0,4,2,1,0.583362953737378,1,0
5,80,0,4,2,2,0.504693493130617,1,1
6,60,0,4,2,2,0.621201388421468,1,1
7,80,0,4,1,2,0.524904760648496,1,0
8,10,0,4,1,1,1.191010895418,1,1
9,80,0,4,2,1,0.537452136864886,1,0
10,20,0,4,1,1,0.996009637834504,1,1
11,20,0,4,1,2,0.562289236695506,1,0
12,40,0,4,2,2,0.783557672519237,1,1
13,10,0,4,1,2,0.811342978151515,1,0
14,60,0,4,1,1,0.878462833701633,1,1
15,20,0,4,2,2,0.940548366284929,1,1
16,90,0,4,2,2,0.604395893868059,1,1
17,20,0,4,1,1,0.6917428948218,1,1
18,90,0,4,1,2,0.676104413345456,1,0
19,40,0,4,1,2,0.553140055621043,1,0
20,80,0,4,2,2,0.510912150260992,1,1
21,20,0,4,2,2,1.85048807773273,1,1
22,10,0,4,1,1,1.45292956742924,0,1
23,20,0,4,1,2,1.92888184334151,1,0
24,40,0,4,2,1,0.664404330775142,1,0
25,90,0,4,1,2,0.499034164939076,1,0
26,60,0,4,1,2,0.514461905579083,1,0
27,10,0,4,2,1,1.06897285883315,1,0
28,80,0,4,1,2,0.97488395718392,1,0
29,40,0,4,1,2,0.631415099021979,1,0
30,90,0,4,1,2,0.510789458756335,1,0
31,80,0,4,1,2,0.427536747069098,1,0
32,20,0,4,2,1,0.649970752419904,1,0
33,10,0,4,1,1,0.8319793358678,1,1
34,80,0,4,1,2,0.696259748074226,1,0
35,20,0,4,2,1,0.787701759953052,1,0
36,10,0,4,2,1,1.26342164364178,1,0
37,10,0,4,1,2,1.37807076203171,0,0
38,60,0,4,2,2,0.667225514655001,1,1
39,80,0,4,2,1,0.560047228937037,1,0
40,60,0,4,2,1,0.477765223942697,1,0
41,90,0,4,1,1,0.495836967485957,1,1
42,90,0,4,1,2,0.564485054463148,1,0
43,80,0,4,2,2,0.584250663174316,1,1
44,10,0,4,1,2,6.70966019132175,1,0
45,60,0,4,1,1,2.49255713366438,1,1
46,10,0,4,2,1,0.794298595865257,1,0
47,60,0,4,2,1,1.09197463747114,1,0
48,10,0,4,1,1,1.03116834477987,0,1
49,90,0,4,2,2,0.563231074716896,1,1
50,10,0,4,2,1,0.978347467491403,1,0
51,90,0,4,1,2,0.604409606428817,1,0
52,40,0,4,2,1,0.62245175964199,1,0
53,20,0,4,1,2,3.0979482724797,0,0
54,40,0,4,1,1,1.46707734651864,1,1
55,80,0,4,1,1,0.640983957331628,1,1
56,90,0,4,2,2,0.533610808779486,1,1
57,80,0,4,2,1,0.483658748562448,1,0
58,90,0,4,1,2,0.572307723457925,1,0
59,90,0,4,2,1,0.549575866083615,1,0
60,80,0,4,1,1,0.426396798109636,1,1
61,10,0,4,1,1,0.467625849996693,0,1
62,10,0,4,1,1,3.80693474283908,1,1
63,90,0,4,2,2,0.650928468210623,1,1
64,40,0,4,2,2,0.675262172007933,1,1
65,90,0,4,2,1,1.79346104559954,1,0
66,10,0,4,2,2,1.84415611135773,0,1
67,20,0,4,2,1,0.899951897677965,1,0
68,80,0,4,1,2,0.566789129632525,1,0
69,40,0,4,1,2,0.653901934158057,1,0
70,90,0,4,1,2,0.695570510346442,1,0
71,80,0,4,1,1,0.503324038814753,1,1
72,60,0,4,2,1,0.596005956991576,1,0
73,80,0,4,1,1,0.483609671937302,1,1
74,60,0,4,2,1,0.490657579735853,1,0
75,10,0,4,2,1,1.03983686352149,0,0
76,10,0,4,1,1,0.483890779898502,1,1
77,60,0,4,2,2,0.501700901892036,1,1
78,40,0,4,1,2,0.474852382205427,1,0
79,90,0,4,2,1,0.605224061873741,1,0
80,60,0,4,1,2,0.41552163567394,1,0
81,20,0,4,1,2,0.391428263159469,0,0
82,10,0,4,1,2,1.78294132777955,0,0
83,90,0,4,2,2,0.592859640484676,1,1
84,40,0,4,1,1,0.501211218186654,1,1
85,10,0,4,1,1,1.94918152107857,0,1
86,20,0,4,1,1,0.668104202719405,1,1
87,20,0,4,1,2,1.55969827983063,0,0
88,60,0,4,1,2,0.574012775090523,1,0
89,40,0,4,2,1,0.858983385027386,1,0
90,10,0,4,2,1,1.91757942561526,1,0
91,90,0,4,1,1,0.743106990354136,1,1
92,20,0,4,2,1,1.62821934511885,1,0
93,60,0,4,2,1,0.559192718472332,1,0
94,40,0,4,1,1,0.896156759466976,1,1
95,80,0,4,2,2,0.607342656236142,1,1
96,80,0,4,1,1,0.576112965703942,1,1
97,20,0,4,1,2,2.63368092325982,1,0
98,20,0,4,1,2,0.809194071684033,1,0
99,10,0,4,1,2,0.725469719152898,1,0
100,90,0,4,1,1,0.704891459434293,1,1
101,90,0,4,1,2,0.581551449140534,1,0
102,60,0,4,1,1,0.534109513857402,1,1
103,80,0,4,2,1,0.615706250420772,1,0
104,20,0,4,2,1,0.606710072956048,1,0
105,80,0,4,1,2,0.655869690002874,1,0
106,40,0,4,2,2,0.920045886654407,1,1
107,20,0,4,2,1,1.31717930687591,1,0
108,20,0,4,2,1,3.16665698366705,1,0
109,80,0,4,2,1,0.940208077663556,1,0
110,60,0,4,1,1,0.602563820313662,1,1
111,10,0,4,2,2,1.39398999058176,0,1
112,10,0,4,1,1,0.805607148096897,1,1
113,90,0,4,2,1,0.67525964602828,1,0
114,60,0,4,1,2,0.86640008923132,1,0
115,20,0,4,2,2,1.43939127668273,1,1
116,40,0,4,2,1,0.929231153451838,1,0
117,10,0,4,1,2,3.36801041581202,0,0
118,80,0,4,2,1,0.584870255435817,1,0
119,90,0,4,2,1,0.506921427207999,1,0
120,20,0,4,2,1,0.667735767201521,1,0
121,40,0,4,1,1,0.60140979802236,1,1
122,20,0,4,1,2,0.938256560242735,1,0
123,40,0,4,1,1,0.540721866535023,1,1
124,40,0,4,1,2,0.615714189363644,1,0
125,10,0,4,1,2,0.571780510596,0,0
126,60,0,4,2,2,2.39610245032236,1,1
127,60,0,4,2,1,1.48447320400737,1,0
128,60,0,4,1,1,0.803521752590314,1,1
129,10,0,4,2,2,0.56863563740626,1,1
130,80,0,4,2,2,0.588250407599844,1,1
131,20,0,4,1,1,0.519945496111177,1,1
132,60,0,4,1,1,0.533064470509999,1,1
133,90,0,4,2,2,0.499866663245484,1,1
134,40,0,4,2,2,0.855197268188931,1,1
135,40,0,4,2,1,6.56451247970108,1,0
136,80,0,4,2,1,1.27331383014098,1,0
137,80,0,4,2,2,0.695833936217241,1,1
138,10,0,4,2,1,1.97296022588853,1,0
139,90,0,4,1,1,0.799974162597209,1,1
140,40,0,4,2,2,0.689609505236149,1,1
141,40,0,4,1,2,0.933915805537254,1,0
142,40,0,4,1,1,1.46393860806711,1,1
143,90,0,4,1,2,2.25501041614916,1,0
144,20,0,4,1,1,1.56992353789974,1,1
145,40,0,4,2,2,0.593420052202418,1,1
146,90,0,4,2,2,0.542560796369798,1,1
147,60,0,4,1,2,0.533182470826432,1,0
148,20,0,4,2,1,1.76923199067824,1,0
149,20,0,4,1,1,0.815808589570224,1,1
150,90,0,4,1,1,0.585843127337284,1,1
151,40,0,4,2,2,0.709894387749955,1,1
152,40,0,4,2,1,0.622481710859574,1,0
153,80,0,4,2,1,0.604263098328374,1,0
154,90,0,4,1,1,0.537420381326228,1,1
155,10,0,4,2,2,0.592927842517383,1,1
156,60,0,4,1,2,0.588530433131382,1,0
157,90,0,4,1,1,0.547697602887638,1,1
158,40,0,4,2,1,0.881697921198793,1,0
159,80,0,4,1,1,0.758639018749818,1,1
160,20,0,4,1,2,0.984567568288185,0,0
161,60,0,4,1,1,0.764766739914194,1,1
162,90,0,4,2,1,0.532129127765074,1,0
163,60,0,4,2,1,0.716845946619287,1,0
164,80,0,4,1,2,0.493553100270219,1,0
165,80,0,4,2,2,0.570701546734199,1,1
166,40,0,4,2,1,0.825921621057205,1,0
167,90,0,4,2,1,0.496999650262296,1,0
168,10,0,4,2,2,1.46297078812495,1,1
169,60,0,4,1,2,0.58347229345236,1,0
170,40,0,4,2,1,0.696980380569585,1,0
171,60,0,4,1,1,0.546505690552294,1,1
172,40,0,4,1,1,0.481155119254254,1,1
173,90,0,4,2,1,0.544335132697597,1,0
174,60,0,4,1,2,0.477128310478292,1,0
175,90,0,4,2,1,0.517716840142384,1,0
176,20,0,4,1,1,0.416048848652281,1,1
177,90,0,4,2,2,0.394265324692242,1,1
178,10,0,4,2,2,1.68233425728977,1,1
179,10,0,4,2,2,0.821665306808427,1,1
180,20,0,4,2,1,0.594155479804613,1,0
181,60,0,4,2,2,0.505987167241983,1,1
182,80,0,4,2,2,0.474671953474171,1,1
183,80,0,4,1,2,0.418820595019497,0,0
184,60,0,4,2,2,0.522699921391904,1,1
185,60,0,4,2,1,0.513972221873701,1,0
186,60,0,4,2,2,0.689832515199669,1,1
187,10,0,4,2,1,1.79671237163711,1,0
188,10,0,4,1,2,1.34031279850751,1,0
189,80,0,4,2,2,0.600584517000243,1,1
190,90,0,4,2,2,0.630822571110912,1,1
191,40,0,4,2,2,0.594574796268716,1,1
192,20,0,4,2,2,0.556450923206285,1,1
193,60,0,4,1,2,0.542684931308031,1,0
194,20,0,4,1,2,1.17068487510551,1,0
195,10,0,4,2,1,0.913923578336835,1,0
196,20,0,4,1,1,0.631705228472129,1,1
197,90,0,4,1,1,0.767804077477194,1,1
198,10,0,4,2,2,2.13773533771746,1,1
199,80,0,4,1,1,0.711028562975116,1,1
200,90,0,4,2,1,1.40123240055982,1,0
201,80,0,4,1,2,2.95800773461815,1,0
202,90,0,4,1,1,0.685944636468776,1,1
203,60,0,4,2,2,3.61624284554273,1,1
204,60,0,4,1,1,5.4193196608685,1,1
205,20,0,4,1,1,1.7529270054074,1,1
206,90,0,4,1,1,0.572482017567381,1,1
207,80,0,4,2,2,0.589472271152772,1,1
208,40,0,4,1,2,0.635869523975998,1,0
209,10,0,4,2,2,4.77288928127382,1,1
210,10,0,4,2,2,1.3666846252745,1,1
211,80,0,4,1,1,0.98268677899614,1,1
212,10,0,4,2,2,3.15710147703066,1,1
213,40,0,4,1,1,1.41827064822428,1,1
214,20,0,4,1,2,1.24681281636003,0,0
215,40,0,4,2,2,1.16395813040435,1,1
216,40,0,4,1,1,0.74806481145788,1,1
217,40,0,4,2,1,0.806307211751118,1,0
218,40,0,4,2,1,0.757666507735848,1,0
219,60,0,4,2,1,0.615457258769311,1,0
220,80,0,4,2,1,0.685634659952484,1,0
221,60,0,4,1,1,0.725922595243901,1,1
222,60,0,4,2,2,0.696754122851416,1,1
223,10,0,4,1,2,1.2469127739314,1,0
224,40,0,4,2,2,0.91417112655472,1,1
225,20,0,4,2,2,1.06097228720319,1,1
226,20,0,4,2,1,0.824577787774615,1,0
227,90,0,4,1,2,0.604636585805565,1,0
228,40,0,4,2,2,0.973216073820367,1,1
229,40,0,4,2,1,0.758919044048525,1,0
230,80,0,4,2,2,0.500588017283008,1,1
231,10,0,4,2,1,0.669371534138918,1,0
232,80,0,4,2,2,0.587466625147499,1,1
233,40,0,4,1,2,0.644651712966152,1,0
234,60,0,4,2,1,0.517566001741216,1,0
235,20,0,4,2,2,0.460948181920685,1,1
236,20,0,4,1,1,0.696265882696025,1,1
237,90,0,4,2,2,0.553735470515676,1,1
238,10,0,4,1,2,0.330651199794374,1,0
239,90,0,4,1,1,0.463407786679454,1,1
240,60,0,4,2,2,0.438458099262789,1,1
241,80,0,4,1,2,0.284166258526966,1,0
242,60,0,4,2,1,0.514346431125887,1,0
243,40,0,4,1,2,0.315263514290564,1,0
244,90,0,4,2,1,0.506599903223105,1,0
245,80,0,4,1,2,0.486373840365559,1,0
246,80,0,4,2,1,0.550016834051348,1,0
247,10,0,4,2,1,2.21704062924255,1,0
248,20,0,4,2,2,1.35223949968349,1,1
249,10,0,4,1,1,0.640658463933505,1,1
250,20,0,4,1,2,0.956890880712308,0,0
251,40,0,4,1,2,0.609061059542,1,0
252,90,0,4,1,2,0.530321953468956,1,0
253,60,0,4,1,2,0.470600759144872,1,0
254,60,0,4,2,1,0.365255268872716,0,0
255,60,0,4,2,2,0.565395137178712,1,1
256,90,0,4,2,2,0.63833093305584,1,1
257,20,0,4,2,2,0.965688947355375,0,1
258,10,0,4,1,2,0.794919270672835,1,0
259,40,0,4,1,1,0.575413263053633,1,1
260,90,0,4,1,2,1.8115277371835,1,0
261,90,0,4,1,1,1.38902819983196,1,1
262,60,0,4,2,2,0.66020972316619,1,1
263,10,0,4,1,1,1.46985703194514,0,1
264,80,0,4,1,2,0.565408127964474,1,0
265,60,0,4,1,2,0.506636710721068,1,0
266,10,0,4,1,1,0.552240437828004,1,1
267,60,0,4,1,1,0.457678452134132,1,1
268,40,0,4,1,2,0.692231495748274,1,0
269,80,0,4,1,1,0.537453940953128,1,1
270,40,0,4,1,2,0.464837864972651,1,0
271,60,0,4,1,2,0.432888624607585,1,0
272,10,0,4,2,2,1.0134466328891,1,1
273,20,0,4,2,2,0.745916265877895,1,1
274,80,0,4,1,1,0.47663501824718,1,1
275,60,0,4,1,1,0.478437140583992,1,1
276,20,0,4,1,1,0.599117270321585,1,1
277,10,0,4,2,1,0.899729248718359,1,0
278,20,0,4,1,1,1.56990116473753,0,1
279,90,0,4,2,2,0.51693666621577,1,1
280,20,0,4,2,2,1.42804555606563,0,1
281,40,0,4,1,1,0.626986655872315,1,1
282,20,0,4,2,2,1.00620422291104,1,1
283,80,0,4,2,1,0.715860805707052,1,0
284,10,0,4,1,2,2.17355549649801,0,0
285,80,0,4,1,1,0.53251163684763,1,1
286,40,0,4,2,2,0.619707077508792,1,1
287,20,0,4,2,2,1.38278175657615,1,1
288,20,0,4,2,1,2.0245751173934,1,0
