Trial,Coherence,Practice,Block,Target_Direction,Distractor_Direction,RT,Acc,Congruency
1,80,1,3,2,2,3.29796552591142,1,1
2,20,1,3,2,1,3.49686036612547,0,0
3,60,1,3,2,2,0.752788249636069,1,1
4,60,1,3,1,1,0.687079850016744,1,1
5,10,1,3,2,1,1.21986097634363,1,0
6,80,1,3,1,2,0.688171802437864,1,0
7,80,1,3,2,1,0.64624855160946,1,0
8,90,1,3,2,1,0.745741078804713,1,0
9,10,1,3,1,2,0.855179899692303,1,0
10,40,1,3,2,2,0.703649307892192,1,1
11,20,1,3,1,2,0.726701195846545,1,0
12,40,1,3,1,1,0.740124704869231,1,1
13,10,1,3,2,2,0.808602318924386,1,1
14,90,1,3,1,2,0.506963632506086,1,0
15,60,1,3,1,2,0.680195064720465,1,0
16,40,1,3,2,1,0.972715984476963,1,0
17,80,1,3,1,1,0.468346190056764,1,1
18,20,1,3,2,2,0.809426876541693,1,1
19,60,1,3,2,1,0.736023568271776,1,0
20,10,1,3,1,1,0.623330180649646,1,1
21,90,1,3,2,2,0.492297332937596,1,1
22,90,1,3,1,1,0.433115027044551,1,1
23,40,1,3,1,2,0.599668083988945,1,0
24,20,1,3,1,1,0.513025303633185,1,1
1,40,0,4,1,2,0.739018679028959,1,0
2,90,0,4,1,1,0.513870069204131,1,1
3,20,0,4,1,1,0.650123791900114,1,1
4,10,0,4,1,2,0.724105553483241,1,0
5,60,0,4,1,2,0.57797229559219,1,0
6,10,0,4,2,1,2.04072628910944,0,0
7,90,0,4,1,1,0.520159440930001,1,1
8,90,0,4,2,1,0.551890293776523,1,0
9,40,0,4,2,2,0.937180258406443,1,1
10,20,0,4,1,1,0.58931149620912,1,1
11,80,0,4,2,1,0.598378742928617,1,0
12,60,0,4,1,2,0.466429319174495,1,0
13,20,0,4,1,2,0.608947153625195,1,0
14,20,0,4,2,1,0.974457478994736,1,0
15,20,0,4,2,2,0.994968574785162,1,1
16,20,0,4,1,2,0.564454963823664,1,0
17,90,0,4,2,1,0.581083241340821,1,0
18,40,0,4,1,2,0.517576789410668,1,0
19,40,0,4,2,2,0.544046712180716,1,1
20,20,0,4,1,1,0.748806195755606,1,1
21,40,0,4,1,1,0.675397474653437,1,1
22,80,0,4,1,1,0.664659822185058,1,1
23,10,0,4,2,2,0.715095322113484,1,1
24,90,0,4,2,2,0.570751913532149,1,1
25,40,0,4,2,1,0.815842187250382,0,0
26,10,0,4,1,1,0.897908582730452,1,1
27,10,0,4,1,2,1.99850497061561,1,0
28,20,0,4,1,2,1.0863324435777,1,0
29,40,0,4,2,1,0.905118499926175,1,0
30,40,0,4,2,2,1.18705549219158,1,1
31,20,0,4,1,1,1.09152625431307,1,1
32,60,0,4,2,2,0.773884294176241,1,1
33,60,0,4,1,1,0.833331829766394,1,1
34,20,0,4,2,2,0.809755977854365,1,1
35,10,0,4,2,1,1.06104865683301,0,0
36,60,0,4,1,1,0.721103947304073,1,1
37,60,0,4,1,1,0.717128749703988,1,1
38,90,0,4,1,1,0.55829802651715,1,1
39,60,0,4,2,1,0.655513547826558,1,0
40,40,0,4,1,2,0.535894958942663,1,0
41,40,0,4,1,1,0.65678556774219,1,1
42,90,0,4,1,1,0.597460723452969,1,1
43,60,0,4,1,1,0.631637463142397,1,1
44,80,0,4,1,2,0.624413833371364,1,0
45,10,0,4,2,1,1.51998370370711,1,0
46,90,0,4,1,1,0.505125789233716,1,1
47,10,0,4,2,2,0.953305140807061,1,1
48,80,0,4,2,1,0.681389861289063,1,0
49,60,0,4,1,2,0.619450610072818,1,0
50,90,0,4,1,1,0.459762852173299,1,1
51,90,0,4,2,2,0.55311071118922,1,1
52,90,0,4,1,1,0.510885062452871,1,1
53,90,0,4,1,2,0.507942275915411,1,0
54,80,0,4,1,2,0.670343676334596,1,0
55,80,0,4,2,2,0.544931171985809,1,1
56,80,0,4,1,1,0.473468190291896,1,1
57,80,0,4,1,2,0.516710372423404,1,0
58,10,0,4,1,1,0.821177814679686,1,1
59,90,0,4,2,2,0.576295394421322,1,1
60,10,0,4,2,2,1.66531946825853,0,1
61,20,0,4,1,1,0.712288217706373,1,1
62,80,0,4,1,2,0.486684206713107,1,0
63,80,0,4,2,2,0.564354284797446,1,1
64,60,0,4,2,2,0.551477834553225,1,1
65,80,0,4,1,1,0.548760583478725,1,1
66,10,0,4,2,2,1.58111391417333,1,1
67,80,0,4,2,2,0.574448168888921,1,1
68,90,0,4,2,1,0.635067045368487,1,0
69,40,0,4,2,1,0.730933323415229,1,0
70,80,0,4,1,1,0.479948816078831,1,1
71,40,0,4,1,2,0.637453029979952,1,0
72,10,0,4,2,2,4.36900197497744,1,1
73,20,0,4,2,2,0.952814014817704,1,1
74,20,0,4,2,1,1.54723885070416,1,0
75,40,0,4,1,1,0.611372110768571,1,1
76,10,0,4,2,2,2.38002975625568,0,1
77,90,0,4,1,2,0.631561683214386,1,0
78,60,0,4,2,2,0.697055373108014,0,1
79,20,0,4,1,2,0.773858673361246,1,0
80,20,0,4,2,2,1.59236434403283,1,1
81,90,0,4,2,1,0.550969387448276,0,0
82,40,0,4,1,1,0.669837755209301,1,1
83,80,0,4,2,2,0.640163424788625,1,1
84,40,0,4,2,1,1.12693062853941,1,0
85,40,0,4,2,2,1.0297721225943,1,1
86,80,0,4,1,1,0.652161188932951,1,1
87,60,0,4,2,2,0.599637050312595,0,1
88,80,0,4,1,2,0.601017688110005,1,0
89,10,0,4,2,2,0.938910566357663,1,1
90,10,0,4,2,1,0.855693398814765,0,0
91,40,0,4,2,2,0.648128975968575,1,1
92,20,0,4,2,2,2.30731135403039,1,1
93,60,0,4,2,1,0.732102860041778,1,0
94,90,0,4,2,2,0.615093986925785,1,1
95,20,0,4,2,1,2.94290885877854,0,0
96,90,0,4,2,1,0.585774378676433,1,0
97,80,0,4,2,1,0.576944575659581,1,0
98,40,0,4,1,2,0.639881956551108,1,0
99,90,0,4,2,2,0.509308118591434,1,1
100,60,0,4,1,2,0.495735214892193,1,0
101,10,0,4,2,2,2.84027363042696,1,1
102,10,0,4,1,1,2.77927116325009,1,1
103,10,0,4,1,2,2.11259451288788,1,0
104,60,0,4,1,1,0.581735670290072,1,1
105,60,0,4,1,2,0.559894817488384,1,0
106,20,0,4,1,1,2.64114567678189,1,1
107,40,0,4,2,2,0.75667828504811,1,1
108,40,0,4,2,1,0.664979541223147,1,0
109,10,0,4,2,1,3.05125753152242,1,0
110,40,0,4,1,2,0.778243804175872,1,0
111,80,0,4,2,2,0.547112190004555,1,1
112,80,0,4,1,2,0.481702940596733,1,0
113,80,0,4,1,2,0.567823200413841,1,0
114,20,0,4,1,2,1.24093933889526,0,0
115,60,0,4,2,1,0.613555293894024,1,0
116,40,0,4,1,2,0.865108150566812,1,0
117,40,0,4,1,2,0.729136617825134,1,0
118,10,0,4,1,2,0.974721265258268,1,0
119,60,0,4,2,2,0.632839837708161,1,1
120,20,0,4,2,1,1.08967072906671,0,0
121,90,0,4,1,1,0.545840530918213,1,1
122,80,0,4,2,1,0.561900459113531,1,0
123,40,0,4,2,1,0.687714596977457,1,0
124,10,0,4,2,2,2.09301334484189,1,1
125,10,0,4,1,2,1.6654197864118,0,0
126,40,0,4,1,1,0.644245435963967,1,1
127,10,0,4,2,1,1.74646387482062,1,0
128,90,0,4,2,1,0.596551364520565,1,0
129,80,0,4,2,2,0.512543559918413,1,1
130,60,0,4,2,1,1.03764024244447,1,0
131,20,0,4,2,2,1.62824901855492,1,1
132,60,0,4,1,2,0.817309430669411,1,0
133,40,0,4,1,1,1.0053049545968,1,1
134,40,0,4,1,2,0.76354394495138,1,0
135,20,0,4,2,2,1.02028556035657,1,1
136,20,0,4,2,1,1.282078087228,1,0
137,20,0,4,1,1,3.05769016336126,1,1
138,20,0,4,2,1,1.1312926645478,1,0
139,90,0,4,1,2,0.609759081227821,1,0
140,10,0,4,2,2,2.91945750244486,1,1
141,10,0,4,1,2,1.94767325001885,1,0
142,20,0,4,1,2,2.36024362158787,1,0
143,10,0,4,1,1,1.95528660503624,0,1
144,60,0,4,1,1,0.65159392215719,1,1
145,80,0,4,2,1,0.554249574997812,1,0
146,40,0,4,2,2,0.655808006893494,1,1
147,80,0,4,1,2,0.567220208846265,1,0
148,60,0,4,2,2,0.580323637957918,1,1
149,90,0,4,1,2,0.596698233217467,1,0
150,40,0,4,2,2,1.23341691978567,1,1
151,10,0,4,2,2,1.63403752115846,1,1
152,60,0,4,1,1,0.516778935212642,1,1
153,20,0,4,2,1,1.08960721829499,1,0
154,40,0,4,1,1,0.779607481716084,1,1
155,60,0,4,2,1,0.634693919520942,1,0
156,60,0,4,2,2,0.578595856000902,1,1
157,60,0,4,1,2,0.587378025913495,1,0
158,10,0,4,2,1,1.55495829759457,1,0
159,80,0,4,2,2,0.572913084411994,1,1
160,80,0,4,2,2,0.51627734437352,1,1
161,80,0,4,1,2,0.529234265661216,1,0
162,40,0,4,2,1,0.591850484066526,1,0
163,80,0,4,1,2,0.510459251527209,1,0
164,90,0,4,1,2,0.546687822497915,1,0
165,10,0,4,1,1,1.58491734396375,0,1
166,20,0,4,1,1,2.17140766236116,1,1
167,60,0,4,1,1,0.537133058329346,1,1
168,10,0,4,1,2,1.80135270749452,1,0
169,90,0,4,2,1,0.58357748297567,1,0
170,90,0,4,2,2,0.496393778390484,1,1
171,90,0,4,1,1,0.484458803330199,1,1
172,10,0,4,2,1,4.51056101311406,1,0
173,90,0,4,2,2,0.616842698582332,1,1
174,10,0,4,1,2,2.47298103373032,1,0
175,90,0,4,2,1,0.648433178183041,1,0
176,40,0,4,2,1,0.892193694890011,1,0
177,60,0,4,2,1,0.574718089701491,1,0
178,80,0,4,2,1,0.551555057885707,1,0
179,60,0,4,2,1,0.512481853424106,1,0
180,80,0,4,2,1,0.532792673737276,1,0
181,60,0,4,1,2,0.599287019285839,0,0
182,10,0,4,1,1,2.7730420545995,1,1
183,80,0,4,1,2,0.532427486745291,1,0
184,20,0,4,1,2,2.0734776447498,1,0
185,90,0,4,1,1,0.540942622697912,1,1
186,60,0,4,1,1,0.545115569781046,1,1
187,90,0,4,1,2,0.532516257502721,1,0
188,40,0,4,1,2,1.15224544896046,1,0
189,90,0,4,1,1,0.567475695395842,1,1
190,60,0,4,2,1,1.13010761108308,1,0
191,60,0,4,2,1,0.697320602790569,1,0
192,80,0,4,2,1,0.552578808405087,1,0
193,60,0,4,1,2,0.584067526389845,0,0
194,20,0,4,1,2,2.96345640110667,1,0
195,40,0,4,1,2,0.646237725915853,1,0
196,10,0,4,1,1,3.94631823303644,1,1
197,80,0,4,2,1,0.672414633023436,1,0
198,20,0,4,2,1,1.71716591794393,1,0
199,40,0,4,2,1,1.01968329050578,1,0
200,60,0,4,1,1,0.606553591016564,1,1
201,40,0,4,2,2,0.783654489801847,1,1
202,60,0,4,1,2,0.54803093119699,1,0
203,60,0,4,2,2,0.626011706903228,1,1
204,80,0,4,1,1,0.505132284655701,1,1
205,90,0,4,2,2,0.481491117694532,1,1
206,80,0,4,2,1,0.758292036291095,1,0
207,80,0,4,1,2,0.542587407617248,1,0
208,20,0,4,1,1,1.24745568950311,1,1
209,90,0,4,1,2,0.625210965867154,1,0
210,90,0,4,2,2,0.534108357329387,1,1
211,80,0,4,2,1,0.539816749733291,1,0
212,90,0,4,2,1,0.516922917027841,1,0
213,80,0,4,2,1,0.604584395900019,1,0
214,10,0,4,1,2,4.55632991397579,1,0
215,20,0,4,2,2,1.91062300829799,1,1
216,10,0,4,1,2,2.53579067134706,1,0
217,60,0,4,2,2,0.646733543049777,1,1
218,60,0,4,2,1,0.568190191697795,1,0
219,60,0,4,1,1,0.520814395873458,1,1
220,10,0,4,1,1,2.72981899787555,1,1
221,20,0,4,2,1,0.945807981639518,1,0
222,20,0,4,1,2,0.975991120038088,1,0
223,20,0,4,2,1,3.63914616970578,1,0
224,80,0,4,1,1,0.622452216251986,1,1
225,40,0,4,1,1,0.719218831814942,1,1
226,60,0,4,1,1,0.628314333618619,1,1
227,90,0,4,1,1,0.515453869331395,1,1
228,60,0,4,2,2,0.562594025730505,1,1
229,40,0,4,1,1,0.487948287787731,1,1
230,10,0,4,1,1,0.92792500530777,1,1
231,40,0,4,1,1,0.493829530561925,1,1
232,20,0,4,1,2,1.13809914395097,0,0
233,90,0,4,1,2,0.503746594869881,1,0
234,60,0,4,2,2,0.560484457353596,1,1
235,80,0,4,2,2,0.540505625205697,0,1
236,90,0,4,2,2,0.61736594082322,1,1
237,20,0,4,2,1,1.62611130336882,1,0
238,10,0,4,1,1,2.7311664368608,1,1
239,40,0,4,2,2,0.617770100347116,1,1
240,80,0,4,2,2,0.674233350873692,1,1
241,90,0,4,1,2,0.554228284454439,1,0
242,90,0,4,2,2,0.520749802512,1,1
243,90,0,4,2,2,0.498554588426487,1,1
244,40,0,4,1,2,0.489737415395211,1,0
245,20,0,4,2,2,4.29781071837351,1,1
246,90,0,4,2,1,0.655119853152428,1,0
247,20,0,4,2,2,2.08418751125282,1,1
248,90,0,4,1,2,0.584246872182121,1,0
249,80,0,4,2,2,0.495009892882081,1,1
250,60,0,4,1,2,0.530261624735431,1,0
251,40,0,4,2,2,0.88133695970464,1,1
252,20,0,4,1,2,1.01212514654617,1,0
253,10,0,4,1,2,4.22736499177699,0,0
254,90,0,4,1,2,0.533706362955854,1,0
255,10,0,4,2,1,1.84165282480535,1,0
256,10,0,4,2,2,4.40194638895628,0,1
257,40,0,4,2,1,0.926437914793496,1,0
258,10,0,4,1,2,1.94043807283742,1,0
259,60,0,4,2,1,0.659576433594339,1,0
260,60,0,4,1,2,0.487821987931966,1,0
261,20,0,4,1,1,1.57641664228868,1,1
262,80,0,4,1,1,0.589218034307123,1,1
263,10,0,4,2,1,1.8165729221073,1,0
264,60,0,4,2,2,0.570641491372953,1,1
265,40,0,4,1,1,0.552156966892653,1,1
266,20,0,4,2,1,1.79405077181582,0,0
267,40,0,4,2,1,1.20487387516187,1,0
268,80,0,4,1,1,0.576789407263277,1,1
269,40,0,4,2,2,0.590498353951261,1,1
270,80,0,4,1,1,0.470684541578521,1,1
271,10,0,4,2,1,3.97550648945617,1,0
272,60,0,4,2,1,0.657218595821178,1,0
273,10,0,4,2,1,2.95965694072947,0,0
274,90,0,4,2,1,0.591623866042937,1,0
275,20,0,4,2,2,3.14281626294542,1,1
276,10,0,4,1,1,2.62284518922388,0,1
277,20,0,4,1,1,1.02689862056286,1,1
278,80,0,4,2,2,0.566348739856039,1,1
279,40,0,4,1,1,0.804380656205467,1,1
280,90,0,4,1,2,0.576716514216969,1,0
281,80,0,4,1,1,0.525971760085667,1,1
282,20,0,4,2,2,0.937977751746075,1,1
283,20,0,4,1,1,1.08704549646063,1,1
284,20,0,4,1,2,1.22402634542959,1,0
285,90,0,4,2,1,0.713098341031582,1,0
286,40,0,4,2,1,2.008312695325,1,0
287,80,0,4,1,1,0.591238471068209,1,1
288,10,0,4,1,1,2.27603554149391,1,1
