Trial,Coherence,Practice,Block,Target_Direction,Distractor_Direction,RT,Acc,Congruency
1,60,1,3,1,2,2.33937036118004,0,0
2,90,1,3,1,1,1.12156896566739,1,1
3,90,1,3,2,1,0.654857721005101,1,0
4,60,1,3,2,1,0.984219335077796,1,0
5,60,1,3,1,1,0.65777272899868,1,1
6,60,1,3,2,2,0.951287828735076,1,1
7,10,1,3,2,2,2.01529928087257,1,1
8,80,1,3,2,2,0.661267635121476,1,1
9,10,1,3,1,2,1.32404185080668,1,0
10,40,1,3,2,2,0.757643686258234,1,1
11,80,1,3,1,2,0.698763268708717,1,0
12,90,1,3,1,2,0.978049030469265,1,0
13,80,1,3,1,1,2.90385345427785,0,1
14,90,1,3,2,2,1.27140679623699,0,1
15,20,1,3,1,2,2.6286793043837,1,0
16,20,1,3,2,1,0.718708230706397,1,0
17,40,1,3,1,2,0.900354939571116,1,0
18,10,1,3,2,1,0.811187380400952,1,0
19,40,1,3,2,1,0.741130841197446,1,0
20,40,1,3,1,1,1.61582302965689,1,1
21,20,1,3,1,1,2.43817823188147,1,1
22,80,1,3,2,1,0.572157091402914,1,0
23,20,1,3,2,2,2.29562395170797,0,1
24,10,1,3,1,1,1.36631523945834,1,1
1,80,0,4,1,2,1.40837067004759,1,0
2,10,0,4,2,2,0.839340770849958,1,1
3,20,0,4,1,2,0.916242418345064,1,0
4,40,0,4,2,1,0.65524131275015,1,0
5,80,0,4,2,1,0.660285741498228,1,0
6,80,0,4,1,2,0.577616506488994,1,0
7,10,0,4,1,1,0.834372122189961,1,1
8,60,0,4,1,1,0.503882467222866,1,1
9,60,0,4,2,2,0.472503009543288,1,1
10,60,0,4,1,2,0.540443840436637,1,0
11,60,0,4,1,1,0.599577580054756,1,1
12,60,0,4,2,1,0.563602600479499,1,0
13,90,0,4,2,2,0.548828367493115,1,1
14,80,0,4,2,2,0.46359054784989,0,1
15,20,0,4,2,1,1.17051966383588,1,0
16,10,0,4,1,2,0.815209138672799,1,0
17,10,0,4,2,1,0.590929627011064,1,0
18,60,0,4,2,1,1.0087341980543,1,0
19,40,0,4,1,1,0.494507386058103,1,1
20,10,0,4,1,1,4.51366098725703,1,1
21,90,0,4,1,2,0.619815197540447,1,0
22,40,0,4,2,2,0.526705990545452,1,1
23,90,0,4,2,1,0.540363369218539,1,0
24,10,0,4,1,2,6.52751900273142,0,0
25,20,0,4,2,2,1.46117965801386,1,1
26,90,0,4,2,2,0.627529251156375,1,1
27,40,0,4,2,1,3.56577027228195,0,0
28,90,0,4,2,2,0.708201139175799,1,1
29,60,0,4,1,1,0.795932845794596,1,1
30,60,0,4,2,2,0.771241884329356,1,1
31,60,0,4,2,2,0.700947900768369,1,1
32,90,0,4,1,1,0.541608328057919,1,1
33,40,0,4,2,1,0.624742347630672,1,0
34,40,0,4,2,2,0.868802991928533,1,1
35,90,0,4,2,2,0.565264710749034,1,1
36,10,0,4,1,2,0.721853465831373,1,0
37,10,0,4,2,1,3.57521175127476,1,0
38,20,0,4,2,2,2.22371549118543,1,1
39,60,0,4,2,2,0.655341631150804,1,1
40,40,0,4,1,2,0.890082044585142,1,0
41,80,0,4,1,2,1.17870968859643,1,0
42,10,0,4,2,1,3.54277101129992,1,0
43,40,0,4,2,2,1.24859373777872,1,1
44,60,0,4,2,1,0.676249361247756,1,0
45,80,0,4,2,2,0.643189389666077,1,1
46,80,0,4,2,2,0.768932395440061,1,1
47,20,0,4,2,2,0.840431643475313,1,1
48,40,0,4,2,1,0.778796077880543,1,0
49,20,0,4,1,1,3.79130629013525,1,1
50,20,0,4,1,2,1.74907079164404,1,0
51,40,0,4,2,1,0.898570498626214,1,0
52,10,0,4,2,1,5.61413096822798,0,0
53,10,0,4,1,1,0.798215992050245,1,1
54,80,0,4,2,1,0.620880088477861,1,0
55,90,0,4,1,1,0.573680632340256,1,1
56,60,0,4,2,1,0.596788150549401,1,0
57,10,0,4,1,1,2.24718134105206,1,1
58,80,0,4,2,1,0.591786302975379,1,0
59,20,0,4,1,2,0.668071605730802,1,0
60,40,0,4,2,1,2.24194998800522,0,0
61,10,0,4,1,1,1.89090588252293,1,1
62,10,0,4,1,2,0.727028885914478,1,0
63,90,0,4,2,1,0.604673250636552,1,0
64,40,0,4,2,2,0.415438788419124,0,1
65,20,0,4,1,1,1.15831654140493,1,1
66,40,0,4,2,1,2.06808373052627,0,0
67,80,0,4,1,1,0.605171595059801,1,1
68,90,0,4,2,2,0.575083285919391,1,1
69,90,0,4,2,1,0.630096753186081,1,0
70,40,0,4,1,1,0.578071908850688,1,1
71,80,0,4,2,2,0.510292020451743,1,1
72,10,0,4,1,1,1.2206597487675,1,1
73,80,0,4,2,2,0.609937080880627,1,1
74,60,0,4,1,2,0.640370009001344,1,0
75,80,0,4,1,1,0.523864597547799,1,1
76,90,0,4,2,2,0.511483211477753,1,1
77,90,0,4,1,2,0.620660326152574,1,0
78,20,0,4,2,1,2.02639420953346,0,0
79,20,0,4,1,2,0.530906012456398,1,0
80,80,0,4,2,1,0.76625447103288,1,0
81,60,0,4,2,2,0.417899476597086,0,1
82,80,0,4,1,1,0.712146034755278,1,1
83,80,0,4,2,1,1.27242766250856,1,0
84,20,0,4,2,2,1.06058619153919,0,1
85,20,0,4,2,2,1.35800252313493,0,1
86,90,0,4,2,1,0.533703380846418,1,0
87,20,0,4,1,2,0.746716556430329,1,0
88,10,0,4,1,1,1.91332524531754,1,1
89,80,0,4,1,1,0.675376085797325,1,1
90,90,0,4,1,1,0.491778580646496,1,1
91,80,0,4,1,1,0.488271405396517,1,1
92,60,0,4,1,1,0.493630862853024,1,1
93,90,0,4,1,2,0.442295256594662,1,0
94,20,0,4,1,1,1.20894486672478,1,1
95,40,0,4,2,2,1.47075645858422,1,1
96,10,0,4,2,2,0.624108320800588,0,1
97,40,0,4,2,1,1.52577822556486,1,0
98,40,0,4,1,2,0.479034532618243,1,0
99,80,0,4,1,1,0.593319226172753,1,1
100,80,0,4,2,1,0.502835619263351,1,0
101,80,0,4,1,2,0.437834334559739,1,0
102,20,0,4,1,1,0.754779198439792,1,1
103,40,0,4,2,1,0.733710886619519,0,0
104,90,0,4,1,2,0.609372338629328,1,0
105,80,0,4,1,2,0.583110563922673,1,0
106,20,0,4,1,1,0.63362918846542,1,1
107,40,0,4,1,1,0.9520748591749,1,1
108,90,0,4,2,2,0.661502553441096,1,1
109,60,0,4,1,2,0.525635325931944,1,0
110,80,0,4,2,1,0.66974923282396,1,0
111,60,0,4,1,2,0.459686429181602,1,0
112,10,0,4,1,2,1.04211100266548,0,0
113,40,0,4,1,1,0.571569254330825,1,1
114,40,0,4,1,1,0.605022560805082,1,1
115,60,0,4,2,2,0.510669477516785,1,1
116,90,0,4,1,2,0.402870478108525,1,0
117,60,0,4,2,2,0.533850610721856,1,1
118,10,0,4,2,2,1.39490418508649,0,1
119,60,0,4,1,2,0.552346368494909,1,0
120,60,0,4,2,1,0.63359418528853,1,0
121,90,0,4,1,1,0.457812134642154,1,1
122,40,0,4,2,1,0.46305395255331,1,0
123,90,0,4,2,1,0.406953943020198,0,0
124,20,0,4,2,2,2.01013143878663,1,1
125,10,0,4,1,2,1.35664894618094,1,0
126,90,0,4,1,1,0.751112163241487,1,1
127,20,0,4,1,1,2.60705707612215,1,1
128,40,0,4,1,1,0.726210099994205,1,1
129,90,0,4,1,2,1.29393910744693,1,0
130,90,0,4,2,2,0.515449036785867,1,1
131,40,0,4,2,1,1.45598799933214,0,0
132,60,0,4,1,1,3.66303114633774,1,1
133,40,0,4,2,2,0.848395049630199,1,1
134,20,0,4,2,1,2.96562434145017,0,0
135,10,0,4,2,2,2.11083814239828,1,1
136,60,0,4,2,1,0.824385026411619,1,0
137,20,0,4,1,2,0.934452376910485,1,0
138,10,0,4,2,2,0.929500688507687,1,1
139,20,0,4,1,2,1.87081080378266,1,0
140,40,0,4,1,2,0.762695332232397,1,0
141,10,0,4,1,1,0.913712084700819,1,1
142,60,0,4,2,2,0.804383770620916,1,1
143,90,0,4,2,1,0.582775687973481,1,0
144,90,0,4,1,2,0.977129204373341,1,0
145,10,0,4,2,1,0.892721357289702,1,0
146,60,0,4,1,1,0.546680181985721,1,1
147,80,0,4,1,1,0.800266385136638,1,1
148,10,0,4,2,1,1.00260755722411,1,0
149,40,0,4,2,2,0.587244188063778,1,1
150,40,0,4,1,2,0.48842982185306,1,0
151,90,0,4,2,1,0.521262092341203,1,0
152,20,0,4,1,1,0.537969800585415,1,1
153,20,0,4,2,1,1.04256135300966,1,0
154,60,0,4,1,1,0.82288241526112,1,1
155,20,0,4,2,1,0.559103066683747,1,0
156,60,0,4,2,2,0.622150307288393,1,1
157,90,0,4,2,1,0.693141828582156,1,0
158,10,0,4,1,1,1.64814937772462,0,1
159,10,0,4,1,1,0.975752893311437,1,1
160,80,0,4,1,1,0.568749152007513,1,1
161,90,0,4,2,1,0.55945165513549,1,0
162,10,0,4,2,1,0.807967447733972,0,0
163,80,0,4,2,1,0.520718640764244,1,0
164,80,0,4,1,2,0.446173754404299,1,0
165,10,0,4,1,2,0.876750520372298,0,0
166,20,0,4,1,1,1.02166805719025,0,1
167,60,0,4,1,2,0.54545110091567,1,0
168,80,0,4,1,1,0.558154372032732,1,1
169,80,0,4,1,2,0.637231269327458,1,0
170,80,0,4,2,1,0.52783764002379,1,0
171,20,0,4,2,1,0.654842565010767,0,0
172,20,0,4,1,2,0.987024281348567,1,0
173,10,0,4,1,1,0.775578671309631,1,1
174,10,0,4,2,2,1.16908525477629,1,1
175,10,0,4,1,2,1.7145515116863,0,0
176,20,0,4,1,2,0.765621165919583,0,0
177,10,0,4,1,2,2.1873590851319,1,0
178,40,0,4,2,2,0.878849629196338,1,1
179,40,0,4,2,2,1.24381020909641,1,1
180,80,0,4,2,2,0.776183829526417,1,1
181,10,0,4,2,1,2.01442203600891,1,0
182,40,0,4,1,1,0.958320943871513,1,1
183,90,0,4,2,2,0.561494831054006,1,1
184,10,0,4,1,1,3.83096310019027,1,1
185,20,0,4,1,1,1.01877758756746,0,1
186,90,0,4,2,2,0.592465437017381,1,1
187,40,0,4,1,1,0.601542449847329,1,1
188,10,0,4,2,2,0.811536329740193,1,1
189,90,0,4,1,2,0.594056097499561,1,0
190,20,0,4,2,2,0.652440696663689,1,1
191,20,0,4,1,1,0.755488283699378,1,1
192,40,0,4,1,2,0.556695424602367,0,0
193,60,0,4,1,1,0.514274445245974,1,1
194,80,0,4,2,2,0.556057789188344,1,1
195,10,0,4,2,2,0.676954837981611,0,1
196,60,0,4,2,1,0.498180555819999,1,0
197,80,0,4,2,2,0.629831161932088,1,1
198,90,0,4,2,1,0.623052812239621,1,0
199,10,0,4,2,2,1.1715376432403,1,1
200,20,0,4,1,2,0.669301047630142,1,0
201,80,0,4,1,2,0.642498708155472,1,0
202,60,0,4,1,2,0.543384108401369,1,0
203,10,0,4,2,2,0.647340695781168,1,1
204,60,0,4,1,2,0.750817342544906,1,0
205,60,0,4,1,1,0.655084700498264,1,1
206,90,0,4,1,1,0.609030606516171,1,1
207,60,0,4,1,2,0.861169409647118,1,0
208,40,0,4,1,1,0.804493471339811,1,1
209,20,0,4,1,2,0.907139784714673,1,0
210,60,0,4,1,1,1.09468579402892,1,1
211,90,0,4,2,1,0.51813850866165,1,0
212,90,0,4,1,1,0.409072538139299,1,1
213,90,0,4,1,2,0.463383054709993,1,0
214,40,0,4,2,1,0.61582483391976,1,0
215,20,0,4,1,2,0.529864938172977,1,0
216,90,0,4,1,1,0.466605874185916,1,1
217,20,0,4,2,2,0.407602043298539,1,1
218,80,0,4,2,2,1.27866508660372,1,1
219,80,0,4,1,1,0.495961642300244,1,1
220,40,0,4,2,2,0.395608579157852,1,1
221,20,0,4,2,1,1.16678731341381,1,0
222,10,0,4,1,2,1.07197269314202,0,0
223,40,0,4,1,2,0.655945345934015,1,0
224,80,0,4,1,2,0.524051521846559,1,0
225,20,0,4,2,1,0.594758687308058,1,0
226,20,0,4,1,1,0.440838835202157,1,1
227,40,0,4,1,2,0.51370068162214,0,0
228,90,0,4,1,1,0.516446808120236,1,1
229,40,0,4,1,1,1.38199739024276,0,1
230,20,0,4,2,1,0.94075872481335,1,0
231,60,0,4,2,1,0.599353848316241,1,0
232,20,0,4,2,2,0.92351297789719,0,1
233,40,0,4,1,2,0.644849695614539,1,0
234,60,0,4,2,2,0.535400855063926,1,1
235,80,0,4,2,2,0.568813745456282,1,1
236,10,0,4,2,2,0.758809256425593,0,1
237,20,0,4,2,1,0.756930631643627,0,0
238,10,0,4,1,2,0.9150429276051,0,0
239,90,0,4,1,2,0.649702148104552,1,0
240,10,0,4,2,1,0.855468941736035,1,0
241,40,0,4,1,2,0.596614578098524,1,0
242,60,0,4,2,1,0.500731819251087,1,0
243,60,0,4,2,1,0.516336024855264,1,0
244,90,0,4,1,1,0.525717240583617,1,1
245,80,0,4,2,1,0.487945190048777,1,0
246,40,0,4,1,2,0.43034762138268,1,0
247,20,0,4,2,2,0.389850373961963,1,1
248,90,0,4,1,1,0.393034220847767,1,1
249,20,0,4,2,2,0.517460818111431,1,1
250,80,0,4,1,1,0.516523670812603,1,1
251,20,0,4,1,1,0.456961954070721,0,1
252,60,0,4,2,2,0.5410681241774,1,1
253,90,0,4,2,1,0.517377459967975,1,0
254,40,0,4,1,1,0.449696085706819,1,1
255,40,0,4,1,1,0.463762676925398,1,1
256,60,0,4,2,1,0.637058418476954,1,0
257,60,0,4,1,2,0.484736083133612,1,0
258,60,0,4,1,1,0.516896436747629,1,1
259,90,0,4,1,2,0.76754706306383,1,0
260,60,0,4,1,2,0.609545189479832,1,0
261,80,0,4,1,1,0.422445200150833,0,1
262,90,0,4,1,2,0.536169120983686,1,0
263,60,0,4,2,2,0.45334471721435,1,1
264,10,0,4,2,1,0.427294044115115,0,0
265,60,0,4,2,1,0.429838090378325,1,0
266,40,0,4,2,2,0.72537651885068,1,1
267,10,0,4,2,2,1.05638436536537,0,1
268,80,0,4,2,2,0.616861577902455,1,1
269,80,0,4,1,2,0.483353998453822,1,0
270,40,0,4,1,2,0.703026440751273,1,0
271,90,0,4,2,2,0.494885203952435,1,1
272,80,0,4,2,1,0.457847137819044,1,0
273,10,0,4,2,1,1.56699033192126,1,0
274,20,0,4,2,2,1.04627999087097,0,1
275,80,0,4,1,2,0.562616737443022,1,0
276,20,0,4,2,1,0.822109097382054,1,0
277,40,0,4,2,2,0.565409414586611,1,1
278,20,0,4,2,1,0.566966154437978,1,0
279,80,0,4,1,2,0.473682292271405,1,0
280,80,0,4,2,1,0.434913552948274,1,0
281,10,0,4,1,2,0.779454643081408,1,0
282,90,0,4,1,1,0.578550766920671,1,1
283,10,0,4,2,1,1.02091963845305,1,0
284,60,0,4,1,1,0.456175284460187,1,1
285,90,0,4,2,2,0.452417673950549,1,1
286,40,0,4,1,2,0.443884112755768,1,0
287,80,0,4,2,2,0.589992118882947,1,1
288,60,0,4,1,2,0.464132195105776,1,0
