Trial,Coherence,Practice,Block,Target_Direction,Distractor_Direction,RT,Acc,Congruency
1,60,1,3,2,1,2.64229889570265,1,0
2,10,1,3,2,2,2.11111716550454,0,1
3,40,1,3,2,1,1.37901084522287,1,0
4,10,1,3,2,1,2.1171225624953,1,0
5,80,1,3,2,1,0.801490631768274,1,0
6,20,1,3,2,1,1.03438542653771,0,0
7,10,1,3,1,2,1.1991246309326,0,0
8,20,1,3,1,1,0.970585751742647,1,1
9,80,1,3,2,2,0.910982493340498,0,1
10,60,1,3,1,1,0.986826882758123,1,1
11,90,1,3,2,2,0.795741804736963,1,1
12,40,1,3,1,1,1.2247170332862,1,1
13,80,1,3,1,2,1.4652151037792,1,0
14,90,1,3,1,1,0.723775194195696,1,1
15,40,1,3,2,2,1.45046395498798,1,1
16,40,1,3,1,2,1.52662229076918,1,0
17,20,1,3,1,2,1.31245529872899,1,0
18,20,1,3,2,2,1.41841400070871,1,1
19,90,1,3,1,2,0.810066419503073,1,0
20,80,1,3,1,1,0.920869277786096,0,1
21,60,1,3,1,2,1.23760290764858,1,0
22,10,1,3,1,1,1.16346068489383,1,1
23,90,1,3,2,1,1.19049724051979,1,0
24,60,1,3,2,2,1.29461231954406,1,1
1,20,0,4,1,2,0.894883540333467,1,0
2,60,0,4,1,1,1.19503538933327,1,1
3,20,0,4,2,2,1.41435723631935,1,1
4,40,0,4,2,2,0.931334156570529,1,1
5,80,0,4,1,2,1.15419493687523,1,0
6,40,0,4,1,2,0.995368749851195,1,0
7,60,0,4,1,2,0.820698736347822,1,0
8,80,0,4,1,1,0.686511204276712,1,1
9,20,0,4,1,2,1.22076094824797,0,0
10,80,0,4,1,1,0.819444394325274,1,1
11,10,0,4,1,1,2.74595063319748,0,1
12,20,0,4,2,1,2.67970253762496,1,0
13,20,0,4,2,1,1.66657380590323,1,0
14,60,0,4,2,2,0.804922751151707,1,1
15,80,0,4,1,2,0.70733919992017,1,0
16,60,0,4,1,1,1.20478216091806,1,1
17,60,0,4,1,2,2.16567526975928,1,0
18,10,0,4,2,1,3.04697395399944,1,0
19,60,0,4,1,1,0.950859094376483,1,1
20,60,0,4,1,1,3.49454202442712,1,1
21,90,0,4,2,1,2.20884397731788,1,0
22,80,0,4,1,1,0.738755848604342,1,1
23,40,0,4,1,2,1.37861354068696,1,0
24,90,0,4,1,1,0.972139244955542,1,1
25,80,0,4,1,2,2.46345123041715,1,0
26,60,0,4,2,2,2.25924211182678,1,1
27,60,0,4,1,1,2.75530226539354,1,1
28,90,0,4,1,1,3.23314126070773,1,1
29,10,0,4,1,2,6.2482456893722,1,0
30,10,0,4,2,1,3.23324446606375,1,0
31,80,0,4,2,1,3.7310515326717,1,0
32,40,0,4,2,1,2.37423525191844,1,0
33,80,0,4,1,2,1.03498300720207,1,0
34,10,0,4,2,1,2.47780940496705,1,0
35,40,0,4,2,1,1.34889508922947,1,0
36,80,0,4,1,1,1.38839603720317,1,1
37,20,0,4,2,2,2.21090916701723,0,1
38,40,0,4,1,2,4.2199057150508,1,0
39,80,0,4,2,2,1.974398937057,1,1
40,40,0,4,1,1,1.33857058416379,1,1
41,60,0,4,1,2,2.6578655833232,1,0
42,60,0,4,2,2,1.17312698516957,1,1
43,90,0,4,1,2,0.850766498242365,1,0
44,60,0,4,2,2,0.656996276668451,1,1
45,10,0,4,1,2,2.54598809024628,0,0
46,60,0,4,1,2,0.807182443253396,1,0
47,60,0,4,2,2,0.981007327580301,1,1
48,60,0,4,1,1,1.25151686613685,1,1
49,90,0,4,2,2,1.41674034181892,1,1
50,90,0,4,2,2,0.828995220076422,1,1
51,10,0,4,2,2,2.9665553299792,1,1
52,40,0,4,1,1,1.6364013952209,0,1
53,80,0,4,1,1,1.68008757299253,1,1
54,10,0,4,1,2,1.94711699806658,0,0
55,80,0,4,2,1,1.68815743796654,1,0
56,90,0,4,2,1,1.67329117550889,1,0
57,20,0,4,1,2,1.19225064900297,1,0
58,20,0,4,1,2,1.6386001023393,1,0
59,40,0,4,1,1,1.42842708541571,1,1
60,20,0,4,1,1,2.30963663775719,1,1
61,40,0,4,1,2,1.12817491792293,0,0
62,10,0,4,2,2,1.46597254448852,1,1
63,60,0,4,1,2,1.60257457669559,1,0
64,90,0,4,2,2,0.782061321302763,1,1
65,40,0,4,1,1,0.809703035608663,1,1
66,10,0,4,1,2,1.39723489033895,0,0
67,40,0,4,2,2,0.95941503492736,1,1
68,10,0,4,1,2,1.15117166948016,0,0
69,80,0,4,2,1,0.933437597205966,1,0
70,90,0,4,1,2,0.930285503544837,1,0
71,40,0,4,1,1,1.88378210823271,1,1
72,40,0,4,2,1,1.47412432420333,1,0
73,20,0,4,1,2,1.46380956230109,1,0
74,10,0,4,2,1,2.03952656888373,1,0
75,10,0,4,1,1,1.63834244980649,1,1
76,60,0,4,2,1,1.03350204642516,0,0
77,60,0,4,2,2,0.851330879980878,0,1
78,60,0,4,2,2,1.10918621493988,1,1
79,20,0,4,1,2,1.20351049771693,1,0
80,90,0,4,1,1,0.982500918383494,1,1
81,90,0,4,2,2,0.946093965950922,1,1
82,40,0,4,2,1,1.04480158950673,1,0
83,20,0,4,2,1,1.63937414251131,1,0
84,40,0,4,2,2,1.14628312765649,1,1
85,60,0,4,1,2,2.03402998151682,1,0
86,20,0,4,2,2,2.15158882119999,1,1
87,40,0,4,1,2,3.89859604629669,1,0
88,10,0,4,1,1,3.06898051150893,1,1
89,20,0,4,2,1,2.4629139130202,0,0
90,20,0,4,1,1,3.73119695840091,1,1
91,90,0,4,1,1,2.0641518720945,1,1
92,80,0,4,2,2,0.949484586676817,1,1
93,20,0,4,1,1,2.35249753353651,1,1
94,80,0,4,2,1,1.50557850210794,1,0
95,20,0,4,2,1,1.07779193944521,1,0
96,10,0,4,2,1,2.99226861972579,1,0
97,40,0,4,2,1,1.39474569261984,1,0
98,20,0,4,1,1,1.39375044656163,1,1
99,80,0,4,1,2,0.773257110524355,1,0
100,80,0,4,1,1,1.09078751460561,1,1
101,90,0,4,1,1,1.0869681947072,1,1
102,80,0,4,2,2,0.567845252589905,1,1
103,20,0,4,1,1,0.703377341155829,1,1
104,40,0,4,2,1,0.575094165866176,1,0
105,10,0,4,1,2,0.529713399447246,1,0
106,10,0,4,2,2,0.867620005095432,1,1
107,10,0,4,1,1,1.06549173743701,1,1
108,10,0,4,2,2,1.14024489259805,1,1
109,60,0,4,1,2,1.15190601528457,1,0
110,90,0,4,2,2,0.881554532483278,1,1
111,90,0,4,1,1,1.19733766266563,1,1
112,10,0,4,1,2,2.97265743688422,0,0
113,40,0,4,2,1,1.46152316671555,1,0
114,90,0,4,1,2,0.937938938514662,1,0
115,60,0,4,2,1,1.37193983488578,1,0
116,60,0,4,2,1,1.4961196951183,1,0
117,80,0,4,2,1,1.47538840938887,1,0
118,10,0,4,2,1,3.2618132242867,1,0
119,90,0,4,1,1,1.09249762014224,1,1
120,10,0,4,2,2,2.30306433302258,1,1
121,40,0,4,2,2,1.16080874026693,1,1
122,90,0,4,2,1,1.69195330210232,1,0
123,40,0,4,1,2,1.92441578912053,1,0
124,80,0,4,1,1,2.04195694676696,1,1
125,40,0,4,2,1,1.05254090865446,1,0
126,80,0,4,1,2,0.784325704556977,1,0
127,20,0,4,1,2,1.16176393109913,1,0
128,10,0,4,2,1,2.97864803870129,1,0
129,20,0,4,2,2,1.62713528634436,0,1
130,60,0,4,1,2,0.882970899698194,1,0
131,20,0,4,2,1,1.42437753818422,0,0
132,60,0,4,2,2,0.719989434081072,1,1
133,40,0,4,2,2,1.03412200027856,1,1
134,90,0,4,1,2,1.34787710912406,1,0
135,20,0,4,2,1,1.80276879041162,1,0
136,20,0,4,2,2,2.82732372633404,1,1
137,90,0,4,2,1,1.5400324916443,1,0
138,10,0,4,1,2,1.10947598382495,1,0
139,80,0,4,2,1,1.32712561535277,1,0
140,80,0,4,2,2,2.15671444665691,1,1
141,90,0,4,2,1,1.41519947863253,1,0
142,80,0,4,2,2,1.17319013530005,1,1
143,40,0,4,1,2,1.29352469386617,1,0
144,10,0,4,2,2,1.17424059261521,1,1
145,10,0,4,1,1,1.22629109539844,0,1
146,20,0,4,2,2,1.07455468332205,1,1
147,90,0,4,2,1,1.02597563343193,1,0
148,60,0,4,1,2,1.19854040201017,1,0
149,20,0,4,1,1,1.12418346881122,1,1
150,40,0,4,1,1,0.863254346352733,1,1
151,60,0,4,1,2,0.802938754477509,1,0
152,40,0,4,2,1,0.808343683940393,1,0
153,90,0,4,2,2,0.636896853102826,1,1
154,90,0,4,2,2,0.66648503486249,1,1
155,90,0,4,1,1,0.762377966883378,1,1
156,90,0,4,1,2,0.799357239927986,1,0
157,80,0,4,2,1,0.678716313013865,1,0
158,20,0,4,2,1,1.74867294511273,0,0
159,40,0,4,2,2,1.04181729476386,1,1
160,80,0,4,1,1,0.720447001884395,1,1
161,20,0,4,2,2,1.00580512086208,1,1
162,40,0,4,1,1,1.28612782885511,1,1
163,90,0,4,2,1,0.858462875301257,1,0
164,80,0,4,1,2,0.75960405228966,1,0
165,10,0,4,1,2,3.54691946445814,1,0
166,40,0,4,2,2,0.744325329264711,1,1
167,10,0,4,2,2,0.936522210442035,0,1
168,40,0,4,2,2,0.787788857718624,1,1
169,90,0,4,1,1,1.24024077881791,1,1
170,80,0,4,1,1,0.738120017003666,1,1
171,10,0,4,2,2,3.02410747214003,1,1
172,10,0,4,2,2,0.950940287401636,1,1
173,20,0,4,1,1,1.97216955701811,1,1
174,20,0,4,1,2,2.00490008927636,1,0
175,10,0,4,1,1,3.06784020057921,0,1
176,80,0,4,1,2,1.64055378695093,1,0
177,10,0,4,1,1,4.89183393031271,1,1
178,40,0,4,1,2,0.684063866072847,1,0
179,40,0,4,2,2,0.805838247616293,1,1
180,90,0,4,1,2,0.836221038448002,1,0
181,80,0,4,1,2,0.633668618426782,1,0
182,20,0,4,1,2,2.60508253902503,1,0
183,20,0,4,2,2,3.85543888619054,0,1
184,90,0,4,1,2,1.64731554207697,1,0
185,10,0,4,1,2,2.51158425995618,0,0
186,40,0,4,1,1,2.81571745404653,1,1
187,40,0,4,1,1,1.51199311194478,0,1
188,80,0,4,1,1,0.774966133486942,1,1
189,80,0,4,2,1,0.759206386896039,1,0
190,20,0,4,2,2,1.3050995715173,1,1
191,40,0,4,2,2,0.747111152168827,1,1
192,60,0,4,2,2,0.834362620318871,1,1
193,90,0,4,1,2,0.617011057407353,1,0
194,60,0,4,1,1,0.688765122652057,0,1
195,60,0,4,2,1,0.648441418691164,1,0
196,90,0,4,1,2,0.661675881774272,1,0
197,60,0,4,2,1,0.632848749302639,1,0
198,10,0,4,2,2,3.01053741121973,0,1
199,90,0,4,1,2,1.13416696317154,1,0
200,10,0,4,1,2,4.39082172393364,0,0
201,80,0,4,1,1,2.35210455929519,1,1
202,90,0,4,2,1,0.878258817382175,1,0
203,80,0,4,2,1,0.717281556481112,1,0
204,90,0,4,2,1,0.684531898754813,1,0
205,10,0,4,1,1,4.03806004242233,1,1
206,40,0,4,1,1,1.12118437889512,1,1
207,10,0,4,2,2,3.90229087022317,1,1
208,80,0,4,2,2,1.83609329475507,1,1
209,10,0,4,2,1,2.06657214595702,1,0
210,20,0,4,2,2,1.03025504713901,1,1
211,80,0,4,2,2,0.679051189134952,1,1
212,40,0,4,1,2,1.0141607852845,1,0
213,40,0,4,1,2,3.0571436510304,1,0
214,80,0,4,2,2,0.783387113187473,1,1
215,60,0,4,2,1,0.671326304302511,1,0
216,60,0,4,1,1,0.792307881064062,1,1
217,90,0,4,1,1,0.602724332719845,1,1
218,80,0,4,2,2,0.636395982352497,1,1
219,90,0,4,1,2,0.542041387513109,1,0
220,80,0,4,1,2,0.645482744858327,1,0
221,20,0,4,1,1,1.21550541395118,1,1
222,40,0,4,1,1,1.1946803051701,1,1
223,90,0,4,2,2,0.622328659261257,1,1
224,10,0,4,1,1,3.18755480529217,0,1
225,40,0,4,2,1,0.745434245558044,1,0
226,90,0,4,1,1,0.642295287123943,1,1
227,10,0,4,2,2,1.35942564414927,0,1
228,20,0,4,1,1,1.26475602037272,1,1
229,10,0,4,2,1,1.74285122478796,0,0
230,20,0,4,2,1,1.81667336659484,0,0
231,60,0,4,1,1,1.49433958315149,1,1
232,40,0,4,1,1,1.00030275976906,1,1
233,60,0,4,1,1,1.74474356355859,1,1
234,20,0,4,2,1,3.75437630405031,1,0
235,10,0,4,1,1,3.97504342924731,0,1
236,90,0,4,2,2,1.03264609151211,1,1
237,80,0,4,2,1,1.48399775690723,1,0
238,40,0,4,2,1,3.16671887077473,1,0
239,60,0,4,2,2,1.26178435565589,1,1
240,90,0,4,2,1,1.64029866042347,1,0
241,60,0,4,2,1,2.50433318153227,1,0
242,20,0,4,1,2,3.16842392430044,1,0
243,10,0,4,1,2,2.23907340354663,0,0
244,80,0,4,1,2,1.15786919190214,0,0
245,20,0,4,1,1,3.92560914615979,1,1
246,60,0,4,2,1,0.890814867633708,1,0
247,80,0,4,1,2,2.01701156260833,1,0
248,60,0,4,1,2,2.32308869814733,1,0
249,60,0,4,2,1,1.89343505676652,1,0
250,60,0,4,2,2,2.52190479558476,1,1
251,20,0,4,1,2,4.66980853602126,1,0
252,10,0,4,1,1,1.40093873571277,0,1
253,90,0,4,2,2,0.762274400669412,1,1
254,20,0,4,1,1,1.17645734262805,1,1
255,90,0,4,1,1,0.932522100741153,0,1
256,80,0,4,1,1,1.59070271300197,1,1
257,10,0,4,2,1,4.42168914691001,0,0
258,80,0,4,2,1,1.29356835767112,1,0
259,90,0,4,2,1,1.29101167952649,1,0
260,90,0,4,1,2,1.28727680037446,1,0
261,80,0,4,2,2,0.866368910793881,1,1
262,10,0,4,2,1,1.56012794577327,1,0
263,20,0,4,2,2,2.57072525940293,0,1
264,40,0,4,2,2,1.36766150375252,1,1
265,80,0,4,2,2,1.19774038007017,1,1
266,60,0,4,1,2,5.07345406675995,1,0
267,60,0,4,2,1,0.982066806342573,1,0
268,60,0,4,1,1,1.69327476369199,0,1
269,60,0,4,2,2,0.765504078776758,1,1
270,20,0,4,2,1,1.35254155819894,1,0
271,10,0,4,1,1,1.41909854812457,1,1
272,80,0,4,2,1,0.645492127163379,1,0
273,20,0,4,1,1,1.39848959321898,1,1
274,90,0,4,2,2,0.786466674413077,1,1
275,40,0,4,1,2,1.33362394422011,1,0
276,60,0,4,1,1,0.766012166684504,1,1
277,20,0,4,1,2,2.96953565528565,0,0
278,40,0,4,2,1,0.934162560705317,1,0
279,90,0,4,2,1,1.0046464061802,1,0
280,40,0,4,2,2,1.10651297969753,1,1
281,60,0,4,2,1,1.22982281155919,1,0
282,60,0,4,2,1,1.44945535718807,1,0
283,80,0,4,2,2,1.83274814212336,1,1
284,40,0,4,1,2,1.04122548782561,1,0
285,20,0,4,2,1,0.669072385927393,1,0
286,10,0,4,2,1,1.49139606535027,0,0
287,20,0,4,2,2,0.881769603785415,0,1
288,90,0,4,2,2,0.832770876170343,1,1
